PE UV       SUBTECH     SPECTRUM    ASCII       PEDS        4.00        
   -1
100% or 0 Absorbance Baseline.Correction.asc
22/05/19
15:25:08.00
22/05/19
15:25:08.00
Administrator

400.000000
1
Lambda 1050
1050L1808311
PerkinElmer UV WinLab 6.4.0.973 / 2.02.11 Lambda 900 UV/VIS/NIR. May 23 2018 11:23:04

0
0
3350/servo 860.8/2
0
0
UV/VIS
0
1
1
CommonBeamDepol.RBeamAtt.SBeamAtt.60mm sphere
0
0
0
0
Program
 
0
3350/0.2 860.8/1
0
0
0
 
 
 
0
 
860.8
319.2
860.8
Front
100
on
S:100 R:100
 
0
0
0
 
0
 
 
 
0
 
 
0
0
0
0
0
 
 
 
 
0
0


0
0
#HDR
-1
-1
#GR
nm
%T
1.0
0.0
850.000000
-3.000000
151
8
109.409300
99.445000
#DATA
850.000000	108.906600
847.000000	109.136100
844.000000	109.131100
841.000000	109.141800
838.000000	109.409300
835.000000	109.327000
832.000000	109.345300
829.000000	109.356400
826.000000	109.290100
823.000000	109.282100
820.000000	109.133800
817.000000	109.109500
814.000000	108.953800
811.000000	108.855200
808.000000	108.379500
805.000000	108.571500
802.000000	108.409900
799.000000	108.297200
796.000000	108.216300
793.000000	108.014800
790.000000	107.933600
787.000000	107.754800
784.000000	107.578500
781.000000	107.545300
778.000000	107.332900
775.000000	107.286900
772.000000	107.142700
769.000000	106.960900
766.000000	106.824100
763.000000	106.726200
760.000000	106.687500
757.000000	106.469300
754.000000	106.398000
751.000000	106.309500
748.000000	106.221200
745.000000	106.145300
742.000000	105.964000
739.000000	105.891200
736.000000	105.876900
733.000000	105.822800
730.000000	105.654500
727.000000	105.638700
724.000000	105.514900
721.000000	105.503200
718.000000	105.443800
715.000000	105.323000
712.000000	105.285800
709.000000	105.277600
706.000000	105.247300
703.000000	105.171000
700.000000	105.096600
697.000000	105.076900
694.000000	104.989400
691.000000	104.932300
688.000000	105.023300
685.000000	104.983400
682.000000	105.007500
679.000000	104.946800
676.000000	104.978900
673.000000	104.898400
670.000000	104.900100
667.000000	104.867700
664.000000	104.868000
661.000000	104.905500
658.000000	104.852200
655.000000	104.908900
652.000000	104.963400
649.000000	104.932400
646.000000	104.966600
643.000000	104.965700
640.000000	104.956500
637.000000	104.952100
634.000000	105.019900
631.000000	105.122700
628.000000	105.032800
625.000000	105.160300
622.000000	105.220700
619.000000	105.235400
616.000000	105.257600
613.000000	105.321000
610.000000	105.436200
607.000000	105.459200
604.000000	105.503400
601.000000	105.599900
598.000000	105.650000
595.000000	105.725500
592.000000	105.844700
589.000000	105.955100
586.000000	106.068300
583.000000	106.169500
580.000000	106.234600
577.000000	106.466500
574.000000	106.557100
571.000000	106.668100
568.000000	106.754100
565.000000	106.901700
562.000000	107.402000
559.000000	107.522800
556.000000	107.656600
553.000000	107.757100
550.000000	107.812600
547.000000	107.869600
544.000000	107.916700
541.000000	107.855800
538.000000	107.627200
535.000000	107.341300
532.000000	106.865700
529.000000	106.186400
526.000000	105.267500
523.000000	104.097700
520.000000	102.853100
517.000000	101.539300
514.000000	100.425900
511.000000	99.657400
508.000000	99.445000
505.000000	99.663600
502.000000	100.315900
499.000000	101.099200
496.000000	102.013600
493.000000	102.873700
490.000000	103.728100
487.000000	104.569600
484.000000	105.445000
481.000000	105.576200
478.000000	104.475000
475.000000	103.807200
472.000000	103.288700
469.000000	103.010500
466.000000	103.004200
463.000000	103.218200
460.000000	103.550900
457.000000	103.973200
454.000000	104.282300
451.000000	104.627600
448.000000	105.030000
445.000000	105.571900
442.000000	105.784800
439.000000	105.865900
436.000000	105.972700
433.000000	106.076100
430.000000	106.144600
427.000000	106.225700
424.000000	106.305200
421.000000	106.380400
418.000000	106.404300
415.000000	106.403100
412.000000	106.361900
409.000000	106.343300
406.000000	106.222600
403.000000	106.077500
400.000000	105.972900
