PE UV       SUBTECH     SPECTRUM    ASCII       PEDS        4.00        
   -1
a.Sample.asc
22/05/06
15:04:12.00
22/05/06
15:04:12.00
Administrator

200.000000
1
Lambda 1050
1050L1808311
PerkinElmer UV WinLab 6.4.0.973 / 2.02.11 Lambda 900 UV/VIS/NIR. May 23 2018 11:23:04

0
0
3350/servo 860.8/2
0
0
UV/VIS
1
1
1
CommonBeamDepol.RBeamAtt.SBeamAtt.60mm sphere
0
0
0
0
Program
Program
3350/servo 860.8/2
3350/0.2 860.8/0.2
3350/0.2 860.8/0.2
0
1.00
 
 
 
0
 
860.8
319.2
860.8
Front
100
on
S:100 R:100
 
0
0
0
 
0
 
 
 
0
 
 
0
0
0
0
0
 
 
 
 
0
0


0
0
#HDR
-1
-1
#GR
nm
%T
1.0
0.0
2000.000000
-1.000000
1801
8
426.948068
47.404186
#DATA
2000.000000	80.588600
1999.000000	80.556583
1998.000000	80.649932
1997.000000	80.551092
1996.000000	80.619883
1995.000000	80.546027
1994.000000	80.574352
1993.000000	80.545878
1992.000000	80.568944
1991.000000	80.507180
1990.000000	80.591178
1989.000000	80.503245
1988.000000	80.501658
1987.000000	80.425269
1986.000000	80.525683
1985.000000	80.445705
1984.000000	80.503396
1983.000000	80.453025
1982.000000	80.458993
1981.000000	80.402270
1980.000000	80.479241
1979.000000	80.411694
1978.000000	80.446558
1977.000000	80.393568
1976.000000	80.425623
1975.000000	80.414606
1974.000000	80.472235
1973.000000	80.372613
1972.000000	80.437122
1971.000000	80.400294
1970.000000	80.392855
1969.000000	80.385298
1968.000000	80.482319
1967.000000	80.422669
1966.000000	80.435902
1965.000000	80.441158
1964.000000	80.463489
1963.000000	80.413566
1962.000000	80.407846
1961.000000	80.368610
1960.000000	80.453425
1959.000000	80.409406
1958.000000	80.445473
1957.000000	80.372310
1956.000000	80.378399
1955.000000	80.342806
1954.000000	80.381635
1953.000000	80.357017
1952.000000	80.393550
1951.000000	80.340838
1950.000000	80.383116
1949.000000	80.353365
1948.000000	80.304432
1947.000000	80.349675
1946.000000	80.322087
1945.000000	80.299381
1944.000000	80.362490
1943.000000	80.295758
1942.000000	80.364906
1941.000000	80.305471
1940.000000	80.292492
1939.000000	80.267711
1938.000000	80.305838
1937.000000	80.272525
1936.000000	80.332239
1935.000000	80.274911
1934.000000	80.302922
1933.000000	80.224870
1932.000000	80.325064
1931.000000	80.281494
1930.000000	80.331505
1929.000000	80.278591
1928.000000	80.269498
1927.000000	80.249405
1926.000000	80.251198
1925.000000	80.241638
1924.000000	80.279696
1923.000000	80.168885
1922.000000	80.232755
1921.000000	80.175486
1920.000000	80.222159
1919.000000	80.137045
1918.000000	80.146181
1917.000000	80.164290
1916.000000	80.220395
1915.000000	80.162155
1914.000000	80.125186
1913.000000	80.102052
1912.000000	80.108918
1911.000000	80.068477
1910.000000	80.103469
1909.000000	80.025644
1908.000000	80.047363
1907.000000	80.015321
1906.000000	80.063995
1905.000000	79.974292
1904.000000	79.942382
1903.000000	79.878474
1902.000000	79.866720
1901.000000	79.860253
1900.000000	79.828340
1899.000000	79.804573
1898.000000	79.819307
1897.000000	79.754385
1896.000000	79.744935
1895.000000	79.746105
1894.000000	79.755473
1893.000000	79.703262
1892.000000	79.705192
1891.000000	79.628308
1890.000000	79.598490
1889.000000	79.562594
1888.000000	79.578075
1887.000000	79.561442
1886.000000	79.564210
1885.000000	79.530074
1884.000000	79.536580
1883.000000	79.541142
1882.000000	79.488640
1881.000000	79.469858
1880.000000	79.486340
1879.000000	79.452360
1878.000000	79.469595
1877.000000	79.457117
1876.000000	79.430645
1875.000000	79.398639
1874.000000	79.400030
1873.000000	79.406853
1872.000000	79.429239
1871.000000	79.391278
1870.000000	79.343822
1869.000000	79.339057
1868.000000	79.316502
1867.000000	79.285525
1866.000000	79.272510
1865.000000	79.253156
1864.000000	79.255812
1863.000000	79.257307
1862.000000	79.254760
1861.000000	79.261876
1860.000000	79.255795
1859.000000	79.250629
1858.000000	79.234667
1857.000000	79.208444
1856.000000	79.154037
1855.000000	79.141074
1854.000000	79.167519
1853.000000	79.188492
1852.000000	79.181554
1851.000000	79.178173
1850.000000	79.137951
1849.000000	79.151550
1848.000000	79.138280
1847.000000	79.144544
1846.000000	79.130182
1845.000000	79.132084
1844.000000	79.115254
1843.000000	79.069116
1842.000000	79.052987
1841.000000	79.061649
1840.000000	79.041238
1839.000000	79.042898
1838.000000	79.041626
1837.000000	79.054302
1836.000000	79.013988
1835.000000	78.981351
1834.000000	78.943926
1833.000000	78.932539
1832.000000	78.882433
1831.000000	78.878244
1830.000000	78.903290
1829.000000	78.894254
1828.000000	78.855313
1827.000000	78.853782
1826.000000	78.850926
1825.000000	78.837784
1824.000000	78.821647
1823.000000	78.809690
1822.000000	78.786019
1821.000000	78.772353
1820.000000	78.744355
1819.000000	78.753845
1818.000000	78.728332
1817.000000	78.748221
1816.000000	78.745149
1815.000000	78.746838
1814.000000	78.726519
1813.000000	78.716667
1812.000000	78.702050
1811.000000	78.693888
1810.000000	78.671888
1809.000000	78.665258
1808.000000	78.632199
1807.000000	78.646872
1806.000000	78.628755
1805.000000	78.605542
1804.000000	78.573216
1803.000000	78.592153
1802.000000	78.582531
1801.000000	78.585074
1800.000000	78.541106
1799.000000	78.570023
1798.000000	78.545898
1797.000000	78.523586
1796.000000	78.504392
1795.000000	78.512139
1794.000000	78.500699
1793.000000	78.534536
1792.000000	78.520377
1791.000000	78.513779
1790.000000	78.459407
1789.000000	78.462714
1788.000000	78.464594
1787.000000	78.436496
1786.000000	78.390403
1785.000000	78.415488
1784.000000	78.379863
1783.000000	78.386600
1782.000000	78.328387
1781.000000	78.372160
1780.000000	78.341024
1779.000000	78.357370
1778.000000	78.339645
1777.000000	78.334350
1776.000000	78.310461
1775.000000	78.307276
1774.000000	78.289412
1773.000000	78.303389
1772.000000	78.275449
1771.000000	78.301572
1770.000000	78.270395
1769.000000	78.293221
1768.000000	78.260348
1767.000000	78.276140
1766.000000	78.241054
1765.000000	78.267662
1764.000000	78.244550
1763.000000	78.251821
1762.000000	78.233331
1761.000000	78.238626
1760.000000	78.208310
1759.000000	78.242411
1758.000000	78.190355
1757.000000	78.240908
1756.000000	78.217293
1755.000000	78.223863
1754.000000	78.176492
1753.000000	78.197892
1752.000000	78.147766
1751.000000	78.150364
1750.000000	78.146689
1749.000000	78.164343
1748.000000	78.110098
1747.000000	78.142378
1746.000000	78.120655
1745.000000	78.138144
1744.000000	78.125734
1743.000000	78.123922
1742.000000	78.075319
1741.000000	78.142460
1740.000000	78.076808
1739.000000	78.082961
1738.000000	78.060936
1737.000000	78.095849
1736.000000	78.063556
1735.000000	78.044843
1734.000000	78.043683
1733.000000	78.046897
1732.000000	78.043118
1731.000000	78.045065
1730.000000	78.009786
1729.000000	78.024673
1728.000000	78.002041
1727.000000	78.006709
1726.000000	77.943671
1725.000000	78.062030
1724.000000	77.932711
1723.000000	77.982454
1722.000000	77.950511
1721.000000	77.981122
1720.000000	77.967301
1719.000000	77.950299
1718.000000	77.922165
1717.000000	77.933513
1716.000000	77.870321
1715.000000	77.889487
1714.000000	77.842157
1713.000000	77.902314
1712.000000	77.818757
1711.000000	77.827298
1710.000000	77.798074
1709.000000	77.796150
1708.000000	77.745210
1707.000000	77.750906
1706.000000	77.727788
1705.000000	77.716573
1704.000000	77.647460
1703.000000	77.649779
1702.000000	77.619737
1701.000000	77.622538
1700.000000	77.569501
1699.000000	77.543625
1698.000000	77.503085
1697.000000	77.509793
1696.000000	77.485912
1695.000000	77.500008
1694.000000	77.430393
1693.000000	77.403653
1692.000000	77.366755
1691.000000	77.398968
1690.000000	77.318688
1689.000000	77.319145
1688.000000	77.280626
1687.000000	77.311096
1686.000000	77.261001
1685.000000	77.291303
1684.000000	77.263899
1683.000000	77.240246
1682.000000	77.210792
1681.000000	77.235191
1680.000000	77.196768
1679.000000	77.215964
1678.000000	77.199462
1677.000000	77.192617
1676.000000	77.154668
1675.000000	77.157089
1674.000000	77.123843
1673.000000	77.156540
1672.000000	77.113580
1671.000000	77.144843
1670.000000	77.149090
1669.000000	77.176107
1668.000000	77.119372
1667.000000	77.157216
1666.000000	77.123358
1665.000000	77.149530
1664.000000	77.133722
1663.000000	77.158605
1662.000000	77.126267
1661.000000	77.140929
1660.000000	77.113539
1659.000000	77.135018
1658.000000	77.111697
1657.000000	77.089236
1656.000000	77.069405
1655.000000	77.106445
1654.000000	77.069286
1653.000000	77.083859
1652.000000	77.044236
1651.000000	77.061761
1650.000000	77.049725
1649.000000	77.054650
1648.000000	77.017307
1647.000000	76.993064
1646.000000	76.970594
1645.000000	76.979706
1644.000000	76.961501
1643.000000	76.961197
1642.000000	76.938036
1641.000000	76.942310
1640.000000	76.923026
1639.000000	76.933615
1638.000000	76.922025
1637.000000	76.904268
1636.000000	76.880838
1635.000000	76.890792
1634.000000	76.870530
1633.000000	76.861140
1632.000000	76.853568
1631.000000	76.860865
1630.000000	76.867134
1629.000000	76.842717
1628.000000	76.832274
1627.000000	76.819152
1626.000000	76.794176
1625.000000	76.793479
1624.000000	76.794316
1623.000000	76.779615
1622.000000	76.767388
1621.000000	76.766790
1620.000000	76.755840
1619.000000	76.758638
1618.000000	76.726935
1617.000000	76.731722
1616.000000	76.713168
1615.000000	76.714151
1614.000000	76.711360
1613.000000	76.700749
1612.000000	76.677160
1611.000000	76.684203
1610.000000	76.661550
1609.000000	76.645484
1608.000000	76.626610
1607.000000	76.644795
1606.000000	76.637120
1605.000000	76.619991
1604.000000	76.589834
1603.000000	76.579085
1602.000000	76.573140
1601.000000	76.550521
1600.000000	76.543729
1599.000000	76.538203
1598.000000	76.516264
1597.000000	76.514522
1596.000000	76.519398
1595.000000	76.514233
1594.000000	76.488654
1593.000000	76.489810
1592.000000	76.488618
1591.000000	76.477394
1590.000000	76.449581
1589.000000	76.426656
1588.000000	76.421239
1587.000000	76.422373
1586.000000	76.408617
1585.000000	76.393438
1584.000000	76.362425
1583.000000	76.359671
1582.000000	76.358925
1581.000000	76.348399
1580.000000	76.347159
1579.000000	76.326976
1578.000000	76.309543
1577.000000	76.313040
1576.000000	76.298955
1575.000000	76.282189
1574.000000	76.274116
1573.000000	76.275005
1572.000000	76.262477
1571.000000	76.245099
1570.000000	76.234838
1569.000000	76.222781
1568.000000	76.207580
1567.000000	76.202727
1566.000000	76.201652
1565.000000	76.189149
1564.000000	76.183702
1563.000000	76.163914
1562.000000	76.145565
1561.000000	76.134174
1560.000000	76.125859
1559.000000	76.091294
1558.000000	76.027680
1557.000000	75.901281
1556.000000	75.727405
1555.000000	75.639227
1554.000000	75.632616
1553.000000	75.608500
1552.000000	75.596586
1551.000000	75.584868
1550.000000	75.592591
1549.000000	75.574438
1548.000000	75.555620
1547.000000	75.438528
1546.000000	75.364615
1545.000000	75.339819
1544.000000	75.323024
1543.000000	75.318431
1542.000000	75.296857
1541.000000	75.277263
1540.000000	75.299466
1539.000000	75.286171
1538.000000	75.289184
1537.000000	75.287430
1536.000000	75.210737
1535.000000	75.235466
1534.000000	75.272586
1533.000000	75.253805
1532.000000	75.251551
1531.000000	75.231257
1530.000000	75.230312
1529.000000	75.225606
1528.000000	75.208718
1527.000000	75.180955
1526.000000	75.179951
1525.000000	75.030537
1524.000000	75.066713
1523.000000	75.082815
1522.000000	75.078158
1521.000000	75.054263
1520.000000	75.058384
1519.000000	75.039059
1518.000000	75.033505
1517.000000	75.020545
1516.000000	75.022780
1515.000000	74.989508
1514.000000	74.986823
1513.000000	74.971155
1512.000000	74.983925
1511.000000	74.959185
1510.000000	74.949758
1509.000000	74.941648
1508.000000	74.922564
1507.000000	74.911802
1506.000000	74.903555
1505.000000	74.872581
1504.000000	75.022582
1503.000000	74.911284
1502.000000	74.867520
1501.000000	74.834465
1500.000000	74.821776
1499.000000	74.944441
1498.000000	74.831812
1497.000000	74.765606
1496.000000	74.775114
1495.000000	74.738818
1494.000000	74.758509
1493.000000	74.728786
1492.000000	74.876441
1491.000000	74.741202
1490.000000	74.710976
1489.000000	74.729879
1488.000000	74.701000
1487.000000	74.670964
1486.000000	74.671601
1485.000000	74.641919
1484.000000	74.642709
1483.000000	74.622427
1482.000000	74.633874
1481.000000	74.606186
1480.000000	74.777209
1479.000000	74.776642
1478.000000	74.768000
1477.000000	74.749159
1476.000000	74.745534
1475.000000	74.720818
1474.000000	74.526925
1473.000000	74.463555
1472.000000	74.463996
1471.000000	74.445282
1470.000000	74.429644
1469.000000	74.397899
1468.000000	74.413431
1467.000000	74.398409
1466.000000	74.559811
1465.000000	74.537768
1464.000000	74.379469
1463.000000	74.339667
1462.000000	74.361208
1461.000000	74.337606
1460.000000	74.478837
1459.000000	74.470415
1458.000000	74.305278
1457.000000	74.271012
1456.000000	74.266195
1455.000000	74.240078
1454.000000	74.228650
1453.000000	74.362845
1452.000000	74.378587
1451.000000	74.347799
1450.000000	74.355377
1449.000000	74.134323
1448.000000	74.155877
1447.000000	74.114940
1446.000000	74.115579
1445.000000	74.093346
1444.000000	74.120955
1443.000000	74.076565
1442.000000	74.083458
1441.000000	74.004865
1440.000000	74.030715
1439.000000	74.011985
1438.000000	74.157411
1437.000000	74.130123
1436.000000	74.145235
1435.000000	74.098319
1434.000000	74.115630
1433.000000	74.066619
1432.000000	74.075234
1431.000000	74.036097
1430.000000	74.046556
1429.000000	74.002507
1428.000000	73.989299
1427.000000	73.949327
1426.000000	73.972070
1425.000000	73.922096
1424.000000	73.909994
1423.000000	73.885536
1422.000000	73.875177
1421.000000	73.741373
1420.000000	73.737804
1419.000000	73.545081
1418.000000	73.644465
1417.000000	73.635467
1416.000000	73.755595
1415.000000	73.687967
1414.000000	73.509509
1413.000000	73.521551
1412.000000	73.521886
1411.000000	73.489205
1410.000000	73.486702
1409.000000	73.446955
1408.000000	73.412767
1407.000000	73.531209
1406.000000	73.511841
1405.000000	73.498458
1404.000000	73.322751
1403.000000	73.285695
1402.000000	73.280590
1401.000000	73.223457
1400.000000	73.269549
1399.000000	73.221380
1398.000000	73.212869
1397.000000	73.166204
1396.000000	73.180147
1395.000000	73.274758
1394.000000	73.283128
1393.000000	73.248694
1392.000000	73.233643
1391.000000	73.182761
1390.000000	73.183322
1389.000000	73.143440
1388.000000	73.162724
1387.000000	73.108513
1386.000000	73.104045
1385.000000	73.092451
1384.000000	73.073593
1383.000000	73.068546
1382.000000	73.036624
1381.000000	72.883169
1380.000000	72.820378
1379.000000	72.666367
1378.000000	72.700700
1377.000000	72.776046
1376.000000	72.912942
1375.000000	72.832323
1374.000000	72.670383
1373.000000	72.639483
1372.000000	72.642746
1371.000000	72.586789
1370.000000	72.569958
1369.000000	72.533355
1368.000000	72.518192
1367.000000	72.479135
1366.000000	72.461947
1365.000000	72.426789
1364.000000	72.413839
1363.000000	72.425329
1362.000000	72.564342
1361.000000	72.465559
1360.000000	72.291620
1359.000000	72.261586
1358.000000	72.253634
1357.000000	72.196454
1356.000000	72.151709
1355.000000	72.137385
1354.000000	72.162789
1353.000000	72.286020
1352.000000	72.208695
1351.000000	72.063798
1350.000000	72.051660
1349.000000	72.053927
1348.000000	72.052220
1347.000000	72.026335
1346.000000	72.034816
1345.000000	72.074210
1344.000000	72.103826
1343.000000	71.991205
1342.000000	72.034681
1341.000000	72.091775
1340.000000	72.061241
1339.000000	71.960866
1338.000000	71.951149
1337.000000	71.941601
1336.000000	71.936151
1335.000000	71.949586
1334.000000	72.013053
1333.000000	71.981676
1332.000000	71.976913
1331.000000	71.951170
1330.000000	71.939764
1329.000000	71.931835
1328.000000	71.912338
1327.000000	71.886686
1326.000000	71.870583
1325.000000	71.845057
1324.000000	71.846376
1323.000000	71.823725
1322.000000	71.802215
1321.000000	71.762742
1320.000000	71.754410
1319.000000	71.715507
1318.000000	71.655001
1317.000000	71.624395
1316.000000	71.614298
1315.000000	71.591672
1314.000000	71.618296
1313.000000	71.646946
1312.000000	71.581827
1311.000000	71.503056
1310.000000	71.501853
1309.000000	71.486862
1308.000000	71.463506
1307.000000	71.429979
1306.000000	71.412247
1305.000000	71.398765
1304.000000	71.387412
1303.000000	71.365748
1302.000000	71.359884
1301.000000	71.338953
1300.000000	71.317979
1299.000000	71.294698
1298.000000	71.307351
1297.000000	71.286464
1296.000000	71.223106
1295.000000	71.266254
1294.000000	71.316314
1293.000000	71.297226
1292.000000	71.239977
1291.000000	71.176246
1290.000000	71.163626
1289.000000	71.206462
1288.000000	71.236558
1287.000000	71.147672
1286.000000	71.088795
1285.000000	71.087944
1284.000000	71.074407
1283.000000	71.070311
1282.000000	71.059728
1281.000000	71.107347
1280.000000	71.135081
1279.000000	71.111173
1278.000000	71.109994
1277.000000	71.115755
1276.000000	71.096311
1275.000000	71.078361
1274.000000	71.053220
1273.000000	71.045563
1272.000000	71.032052
1271.000000	71.012303
1270.000000	70.986194
1269.000000	70.937280
1268.000000	70.898583
1267.000000	70.883132
1266.000000	70.861086
1265.000000	70.855319
1264.000000	70.854270
1263.000000	70.846331
1262.000000	70.820505
1261.000000	70.789080
1260.000000	70.771339
1259.000000	70.773027
1258.000000	70.752912
1257.000000	70.746451
1256.000000	70.721319
1255.000000	70.715059
1254.000000	70.699175
1253.000000	70.678946
1252.000000	70.650227
1251.000000	70.656018
1250.000000	70.687399
1249.000000	70.649188
1248.000000	70.606184
1247.000000	70.594422
1246.000000	70.579043
1245.000000	70.571067
1244.000000	70.616701
1243.000000	70.663259
1242.000000	70.639134
1241.000000	70.623282
1240.000000	70.601312
1239.000000	70.609687
1238.000000	70.572747
1237.000000	70.574727
1236.000000	70.555153
1235.000000	70.555906
1234.000000	70.522838
1233.000000	70.522099
1232.000000	70.494830
1231.000000	70.432809
1230.000000	70.413006
1229.000000	70.401869
1228.000000	70.384156
1227.000000	70.388430
1226.000000	70.334331
1225.000000	70.329492
1224.000000	70.310295
1223.000000	70.308669
1222.000000	70.298437
1221.000000	70.305861
1220.000000	70.266038
1219.000000	70.267751
1218.000000	70.252981
1217.000000	70.252570
1216.000000	70.237158
1215.000000	70.251087
1214.000000	70.221024
1213.000000	70.222028
1212.000000	70.183018
1211.000000	70.237230
1210.000000	70.155518
1209.000000	70.132591
1208.000000	70.113566
1207.000000	70.205891
1206.000000	70.128287
1205.000000	70.127263
1204.000000	70.093170
1203.000000	70.182974
1202.000000	70.154908
1201.000000	70.065081
1200.000000	70.043479
1199.000000	70.076506
1198.000000	70.039657
1197.000000	70.047221
1196.000000	70.017457
1195.000000	70.009628
1194.000000	69.955749
1193.000000	69.960561
1192.000000	69.946705
1191.000000	69.940495
1190.000000	69.953882
1189.000000	69.930759
1188.000000	69.882327
1187.000000	69.887720
1186.000000	69.891198
1185.000000	69.886475
1184.000000	69.847553
1183.000000	69.855799
1182.000000	69.814584
1181.000000	69.821637
1180.000000	69.767795
1179.000000	69.786888
1178.000000	69.761635
1177.000000	69.769429
1176.000000	69.729538
1175.000000	69.731835
1174.000000	69.697542
1173.000000	69.706106
1172.000000	69.652369
1171.000000	69.683127
1170.000000	69.648534
1169.000000	69.626611
1168.000000	69.615062
1167.000000	69.617143
1166.000000	69.586822
1165.000000	69.604061
1164.000000	69.573300
1163.000000	69.639506
1162.000000	69.631852
1161.000000	69.575381
1160.000000	69.538789
1159.000000	69.527754
1158.000000	69.492316
1157.000000	69.518956
1156.000000	69.454566
1155.000000	69.446004
1154.000000	69.417809
1153.000000	69.413623
1152.000000	69.359400
1151.000000	69.465961
1150.000000	69.373470
1149.000000	69.383415
1148.000000	69.341654
1147.000000	69.353717
1146.000000	69.316397
1145.000000	69.310149
1144.000000	69.259588
1143.000000	69.269063
1142.000000	69.245326
1141.000000	69.259377
1140.000000	69.295526
1139.000000	69.216976
1138.000000	69.176810
1137.000000	69.195613
1136.000000	69.152257
1135.000000	69.183100
1134.000000	69.150152
1133.000000	69.164948
1132.000000	69.103329
1131.000000	69.123498
1130.000000	69.083479
1129.000000	69.075822
1128.000000	69.068050
1127.000000	69.073603
1126.000000	69.049921
1125.000000	69.062220
1124.000000	69.015044
1123.000000	69.025141
1122.000000	68.980084
1121.000000	68.991890
1120.000000	68.948161
1119.000000	68.962909
1118.000000	68.943225
1117.000000	68.966575
1116.000000	68.906707
1115.000000	68.896205
1114.000000	68.842606
1113.000000	68.838909
1112.000000	68.797145
1111.000000	68.813918
1110.000000	68.783734
1109.000000	68.791386
1108.000000	68.760222
1107.000000	68.781027
1106.000000	68.751027
1105.000000	68.758285
1104.000000	68.719257
1103.000000	68.719862
1102.000000	68.623093
1101.000000	68.715446
1100.000000	68.681652
1099.000000	68.665048
1098.000000	68.626254
1097.000000	68.650296
1096.000000	68.630032
1095.000000	68.619765
1094.000000	68.543825
1093.000000	68.532309
1092.000000	68.576973
1091.000000	68.576871
1090.000000	68.571045
1089.000000	68.583649
1088.000000	68.515168
1087.000000	68.436312
1086.000000	68.492333
1085.000000	68.509017
1084.000000	68.479752
1083.000000	68.494005
1082.000000	68.466440
1081.000000	68.380064
1080.000000	68.366463
1079.000000	68.438329
1078.000000	68.420869
1077.000000	68.427858
1076.000000	68.367038
1075.000000	68.267536
1074.000000	68.268318
1073.000000	68.332069
1072.000000	68.316598
1071.000000	68.332396
1070.000000	68.277353
1069.000000	68.213366
1068.000000	68.198320
1067.000000	68.231251
1066.000000	68.280547
1065.000000	68.277268
1064.000000	68.256432
1063.000000	68.227353
1062.000000	68.100919
1061.000000	68.143195
1060.000000	68.201940
1059.000000	68.204609
1058.000000	68.175475
1057.000000	68.143437
1056.000000	68.035289
1055.000000	68.062564
1054.000000	68.127602
1053.000000	68.110818
1052.000000	68.003626
1051.000000	67.994731
1050.000000	68.002180
1049.000000	68.099143
1048.000000	68.057832
1047.000000	67.977398
1046.000000	67.992030
1045.000000	68.068914
1044.000000	68.004159
1043.000000	67.906198
1042.000000	67.917777
1041.000000	67.987029
1040.000000	67.945970
1039.000000	67.874942
1038.000000	67.908696
1037.000000	67.938397
1036.000000	67.838220
1035.000000	67.824313
1034.000000	67.839096
1033.000000	67.881057
1032.000000	67.794235
1031.000000	67.782619
1030.000000	67.743543
1029.000000	67.742952
1028.000000	67.724028
1027.000000	67.727660
1026.000000	67.711577
1025.000000	67.754030
1024.000000	67.757983
1023.000000	67.664211
1022.000000	67.649223
1021.000000	67.640125
1020.000000	67.620617
1019.000000	67.555301
1018.000000	67.522311
1017.000000	67.604099
1016.000000	67.664246
1015.000000	67.672700
1014.000000	67.516622
1013.000000	67.422180
1012.000000	67.497179
1011.000000	67.642752
1010.000000	67.650838
1009.000000	67.479260
1008.000000	67.375888
1007.000000	67.449707
1006.000000	67.526188
1005.000000	67.526420
1004.000000	67.523757
1003.000000	67.455146
1002.000000	67.387056
1001.000000	67.468356
1000.000000	67.542497
999.000000	67.473759
998.000000	67.432809
997.000000	67.523300
996.000000	67.581825
995.000000	67.553719
994.000000	67.610356
993.000000	67.741246
992.000000	67.798874
991.000000	67.797509
990.000000	67.828912
989.000000	67.881905
988.000000	67.914414
987.000000	67.917912
986.000000	67.900683
985.000000	67.890660
984.000000	67.887309
983.000000	67.863158
982.000000	67.863068
981.000000	67.867412
980.000000	67.854562
979.000000	67.820112
978.000000	67.812954
977.000000	67.808813
976.000000	67.815140
975.000000	67.808348
974.000000	67.803401
973.000000	67.777991
972.000000	67.788481
971.000000	67.753131
970.000000	67.745097
969.000000	67.747064
968.000000	67.731113
967.000000	67.723683
966.000000	67.737249
965.000000	67.722910
964.000000	67.715090
963.000000	67.690021
962.000000	67.683250
961.000000	67.666210
960.000000	67.668742
959.000000	67.640992
958.000000	67.634767
957.000000	67.619050
956.000000	67.613184
955.000000	67.596507
954.000000	67.596044
953.000000	67.578804
952.000000	67.589082
951.000000	67.577738
950.000000	67.566900
949.000000	67.541636
948.000000	67.534215
947.000000	67.503782
946.000000	67.514886
945.000000	67.500278
944.000000	67.515190
943.000000	67.493968
942.000000	67.489997
941.000000	67.458685
940.000000	67.490435
939.000000	67.460027
938.000000	67.467256
937.000000	67.444791
936.000000	67.455269
935.000000	67.429728
934.000000	67.424439
933.000000	67.439967
932.000000	67.447609
931.000000	67.379679
930.000000	67.393451
929.000000	67.347338
928.000000	67.385411
927.000000	67.335463
926.000000	67.351867
925.000000	67.326242
924.000000	67.339516
923.000000	67.319851
922.000000	67.337769
921.000000	67.274417
920.000000	67.319590
919.000000	67.274083
918.000000	67.302759
917.000000	67.258771
916.000000	67.269456
915.000000	67.217114
914.000000	67.272137
913.000000	67.217954
912.000000	67.268019
911.000000	67.188332
910.000000	67.240538
909.000000	67.190152
908.000000	67.225084
907.000000	67.171881
906.000000	67.222184
905.000000	67.145109
904.000000	67.205320
903.000000	67.136023
902.000000	67.177617
901.000000	67.160411
900.000000	67.189211
899.000000	67.111439
898.000000	67.133497
897.000000	67.119647
896.000000	67.161223
895.000000	67.074919
894.000000	67.166631
893.000000	67.030633
892.000000	67.142522
891.000000	67.037470
890.000000	67.087512
889.000000	67.071290
888.000000	67.098290
887.000000	66.938401
886.000000	67.117863
885.000000	67.047922
884.000000	67.089114
883.000000	66.990841
882.000000	67.096290
881.000000	66.959613
880.000000	67.032097
879.000000	66.973834
878.000000	67.081956
877.000000	66.942242
876.000000	67.112532
875.000000	66.965324
874.000000	67.014814
873.000000	66.910579
872.000000	67.041272
871.000000	66.912540
870.000000	66.984138
869.000000	66.919861
868.000000	66.992679
867.000000	66.825182
866.000000	67.083715
865.000000	66.819125
864.000000	67.094989
863.000000	66.903166
862.000000	67.107287
861.000000	66.797456
860.000000	65.830713
859.000000	66.151749
858.000000	66.258126
857.000000	66.683583
856.000000	66.813516
855.000000	66.200853
854.000000	66.463315
853.000000	66.564017
852.000000	66.745187
851.000000	66.827426
850.000000	66.173971
849.000000	66.295170
848.000000	66.335950
847.000000	66.577850
846.000000	66.426670
845.000000	66.307970
844.000000	66.556895
843.000000	66.513191
842.000000	66.384956
841.000000	66.591070
840.000000	66.376306
839.000000	66.410413
838.000000	66.369721
837.000000	66.265467
836.000000	66.656570
835.000000	66.450474
834.000000	66.419538
833.000000	66.321109
832.000000	66.141641
831.000000	66.373521
830.000000	66.314224
829.000000	66.337200
828.000000	66.451065
827.000000	66.268701
826.000000	66.353559
825.000000	66.369760
824.000000	66.297453
823.000000	66.408836
822.000000	66.103450
821.000000	66.187630
820.000000	66.224882
819.000000	66.391150
818.000000	66.426873
817.000000	66.356455
816.000000	66.168392
815.000000	66.239292
814.000000	66.261179
813.000000	66.193959
812.000000	66.277158
811.000000	66.308291
810.000000	66.300063
809.000000	66.305684
808.000000	66.253660
807.000000	66.340829
806.000000	66.391892
805.000000	66.327756
804.000000	66.242927
803.000000	66.392331
802.000000	66.373164
801.000000	66.272235
800.000000	66.261474
799.000000	66.354131
798.000000	66.297911
797.000000	66.427408
796.000000	66.398899
795.000000	66.354602
794.000000	66.330702
793.000000	66.258987
792.000000	66.183635
791.000000	66.229883
790.000000	66.312337
789.000000	66.307847
788.000000	66.203289
787.000000	66.251121
786.000000	66.295459
785.000000	66.160015
784.000000	66.237122
783.000000	66.454804
782.000000	66.438353
781.000000	66.317697
780.000000	66.242922
779.000000	66.238519
778.000000	66.410930
777.000000	66.364583
776.000000	66.293469
775.000000	66.290067
774.000000	66.372387
773.000000	66.314085
772.000000	66.320283
771.000000	66.210788
770.000000	66.174615
769.000000	66.263912
768.000000	66.340861
767.000000	66.387539
766.000000	66.240968
765.000000	66.272036
764.000000	66.149349
763.000000	66.215727
762.000000	66.299683
761.000000	66.278979
760.000000	66.278797
759.000000	66.247314
758.000000	66.198703
757.000000	66.213355
756.000000	66.288779
755.000000	66.313909
754.000000	66.275878
753.000000	66.263700
752.000000	66.249600
751.000000	66.291592
750.000000	66.253609
749.000000	66.203276
748.000000	66.171258
747.000000	66.237058
746.000000	66.271712
745.000000	66.181516
744.000000	66.149367
743.000000	66.147536
742.000000	66.168890
741.000000	66.257298
740.000000	66.253643
739.000000	66.109120
738.000000	66.139616
737.000000	66.253364
736.000000	66.217913
735.000000	66.170812
734.000000	66.223790
733.000000	66.144343
732.000000	66.118046
731.000000	66.119146
730.000000	66.170015
729.000000	66.171588
728.000000	66.109115
727.000000	66.123635
726.000000	66.145704
725.000000	66.199482
724.000000	66.208207
723.000000	66.145446
722.000000	66.089673
721.000000	66.080426
720.000000	66.129107
719.000000	66.181254
718.000000	66.160709
717.000000	66.103923
716.000000	66.138803
715.000000	66.151951
714.000000	66.145947
713.000000	66.127186
712.000000	66.102245
711.000000	66.116916
710.000000	66.106932
709.000000	66.086900
708.000000	66.134126
707.000000	66.095141
706.000000	66.032609
705.000000	66.040195
704.000000	66.026475
703.000000	66.015634
702.000000	66.029219
701.000000	66.089735
700.000000	66.090407
699.000000	66.049317
698.000000	66.060819
697.000000	66.061797
696.000000	66.064696
695.000000	66.010031
694.000000	65.986588
693.000000	66.014441
692.000000	66.002778
691.000000	65.989624
690.000000	65.908878
689.000000	65.908859
688.000000	65.939375
687.000000	65.895698
686.000000	65.903190
685.000000	65.880226
684.000000	65.876389
683.000000	65.901265
682.000000	65.894421
681.000000	65.840296
680.000000	65.873103
679.000000	65.882644
678.000000	65.861421
677.000000	65.825582
676.000000	65.807714
675.000000	65.824908
674.000000	65.827670
673.000000	65.792510
672.000000	65.782296
671.000000	65.765759
670.000000	65.819805
669.000000	65.792085
668.000000	65.788681
667.000000	65.842484
666.000000	65.793605
665.000000	65.804440
664.000000	65.773469
663.000000	65.749899
662.000000	65.734236
661.000000	65.722759
660.000000	65.629351
659.000000	65.656846
658.000000	65.642265
657.000000	65.637071
656.000000	65.646372
655.000000	65.719531
654.000000	65.687155
653.000000	65.635242
652.000000	65.586395
651.000000	65.623713
650.000000	65.590602
649.000000	65.621855
648.000000	65.612448
647.000000	65.554142
646.000000	65.526286
645.000000	65.492956
644.000000	65.467967
643.000000	65.508605
642.000000	65.497753
641.000000	65.452378
640.000000	65.501447
639.000000	65.471084
638.000000	65.464850
637.000000	65.506700
636.000000	65.481491
635.000000	65.452889
634.000000	65.480530
633.000000	65.434867
632.000000	65.429345
631.000000	65.409967
630.000000	65.397378
629.000000	65.374807
628.000000	65.320952
627.000000	65.315597
626.000000	65.355646
625.000000	65.324918
624.000000	65.274610
623.000000	65.259898
622.000000	65.221033
621.000000	65.297412
620.000000	65.311197
619.000000	65.265135
618.000000	65.237906
617.000000	65.185925
616.000000	65.213850
615.000000	65.187075
614.000000	65.164994
613.000000	65.198428
612.000000	65.120873
611.000000	65.119163
610.000000	65.062189
609.000000	65.118022
608.000000	65.035453
607.000000	65.099188
606.000000	65.054084
605.000000	65.036443
604.000000	65.016847
603.000000	64.995020
602.000000	64.964882
601.000000	64.931980
600.000000	64.984351
599.000000	64.929226
598.000000	64.955966
597.000000	64.865082
596.000000	64.891726
595.000000	64.894442
594.000000	64.860957
593.000000	64.816674
592.000000	64.830144
591.000000	64.824716
590.000000	64.794334
589.000000	64.786429
588.000000	64.741578
587.000000	64.738301
586.000000	64.711133
585.000000	64.598637
584.000000	64.630948
583.000000	64.659081
582.000000	64.595234
581.000000	64.661139
580.000000	64.586688
579.000000	64.598818
578.000000	64.579141
577.000000	64.542108
576.000000	64.547021
575.000000	64.522036
574.000000	64.491044
573.000000	64.478601
572.000000	64.371485
571.000000	64.470332
570.000000	64.382655
569.000000	64.394219
568.000000	64.368260
567.000000	64.363488
566.000000	64.294593
565.000000	64.246332
564.000000	64.251329
563.000000	64.291320
562.000000	64.303934
561.000000	64.303263
560.000000	64.299163
559.000000	64.264874
558.000000	64.233001
557.000000	64.199127
556.000000	64.135194
555.000000	64.133663
554.000000	64.102940
553.000000	64.080159
552.000000	64.073465
551.000000	64.099385
550.000000	64.029686
549.000000	64.021634
548.000000	63.960286
547.000000	63.992434
546.000000	63.969776
545.000000	63.880069
544.000000	63.911279
543.000000	63.869562
542.000000	63.849986
541.000000	63.823146
540.000000	63.796712
539.000000	63.752186
538.000000	63.740841
537.000000	63.698581
536.000000	63.679186
535.000000	63.636486
534.000000	63.581807
533.000000	63.560990
532.000000	63.517792
531.000000	63.465294
530.000000	63.423046
529.000000	63.411910
528.000000	63.385390
527.000000	63.344532
526.000000	63.334399
525.000000	63.282474
524.000000	63.231931
523.000000	63.216517
522.000000	63.161794
521.000000	63.065790
520.000000	63.024637
519.000000	62.976223
518.000000	62.953426
517.000000	62.908321
516.000000	62.856502
515.000000	62.837830
514.000000	62.759414
513.000000	62.707285
512.000000	62.658575
511.000000	62.577229
510.000000	62.537117
509.000000	62.492148
508.000000	62.498067
507.000000	62.446076
506.000000	62.383837
505.000000	62.321582
504.000000	62.295603
503.000000	62.265974
502.000000	62.249332
501.000000	62.187394
500.000000	62.159795
499.000000	62.138207
498.000000	62.081321
497.000000	62.029583
496.000000	62.010008
495.000000	61.997316
494.000000	62.005058
493.000000	62.045928
492.000000	61.951221
491.000000	61.939930
490.000000	61.945641
489.000000	61.904843
488.000000	61.853133
487.000000	61.823774
486.000000	61.773239
485.000000	61.755263
484.000000	61.728342
483.000000	61.756052
482.000000	61.688239
481.000000	61.642960
480.000000	61.535938
479.000000	61.413479
478.000000	61.327950
477.000000	61.313513
476.000000	61.262570
475.000000	61.216116
474.000000	61.134402
473.000000	61.046421
472.000000	60.964272
471.000000	60.887673
470.000000	60.827990
469.000000	60.751647
468.000000	60.638324
467.000000	60.570443
466.000000	60.524539
465.000000	60.471856
464.000000	60.405709
463.000000	60.289643
462.000000	60.176236
461.000000	60.163895
460.000000	60.098308
459.000000	60.007360
458.000000	59.928622
457.000000	59.846395
456.000000	59.775507
455.000000	59.716986
454.000000	59.617697
453.000000	59.518027
452.000000	59.463342
451.000000	59.362195
450.000000	59.231030
449.000000	59.153425
448.000000	59.110193
447.000000	59.019812
446.000000	58.926236
445.000000	58.811360
444.000000	58.756035
443.000000	58.705114
442.000000	58.565209
441.000000	58.372575
440.000000	58.249468
439.000000	58.153282
438.000000	57.999611
437.000000	57.807146
436.000000	57.672333
435.000000	57.502102
434.000000	57.270445
433.000000	57.034127
432.000000	56.717152
431.000000	56.374698
430.000000	56.049507
429.000000	55.659880
428.000000	55.193316
427.000000	54.654127
426.000000	54.119608
425.000000	53.533855
424.000000	52.854048
423.000000	52.222536
422.000000	51.559900
421.000000	50.872575
420.000000	50.236042
419.000000	49.639553
418.000000	49.113557
417.000000	48.666863
416.000000	48.250176
415.000000	47.902109
414.000000	47.663825
413.000000	47.469785
412.000000	47.404186
411.000000	47.464401
410.000000	47.475408
409.000000	47.551017
408.000000	47.783983
407.000000	48.034701
406.000000	48.305327
405.000000	48.586472
404.000000	48.907736
403.000000	49.294446
402.000000	49.657552
401.000000	50.081317
400.000000	50.556101
399.000000	50.967870
398.000000	51.373533
397.000000	51.797667
396.000000	52.237991
395.000000	52.694830
394.000000	53.079070
393.000000	53.497291
392.000000	53.877639
391.000000	54.222086
390.000000	54.646725
389.000000	55.010777
388.000000	55.297556
387.000000	55.578253
386.000000	55.943785
385.000000	56.287279
384.000000	56.611997
383.000000	57.072036
382.000000	57.406062
381.000000	57.803890
380.000000	58.274991
379.000000	58.714694
378.000000	58.587184
377.000000	59.648631
376.000000	60.206919
375.000000	61.279424
374.000000	62.598202
373.000000	63.320082
372.000000	64.052013
371.000000	65.022012
370.000000	66.348161
369.000000	67.767202
368.000000	69.125605
367.000000	70.716667
366.000000	71.956025
365.000000	72.985479
364.000000	74.021270
363.000000	75.334660
362.000000	76.289242
361.000000	77.167625
360.000000	78.128976
359.000000	79.287319
358.000000	80.192843
357.000000	80.765910
356.000000	81.353512
355.000000	82.129860
354.000000	83.078225
353.000000	84.310938
352.000000	85.487402
351.000000	85.872037
350.000000	86.958818
349.000000	87.852368
348.000000	88.763760
347.000000	89.648292
346.000000	90.122650
345.000000	91.034068
344.000000	90.724778
343.000000	90.715740
342.000000	91.720958
341.000000	91.489239
340.000000	92.018228
339.000000	92.017046
338.000000	91.735611
337.000000	91.750567
336.000000	91.680944
335.000000	91.425894
334.000000	91.524186
333.000000	91.044096
332.000000	91.288814
331.000000	91.669374
330.000000	91.754358
329.000000	91.320928
328.000000	91.318553
327.000000	91.384302
326.000000	91.392747
325.000000	92.072123
324.000000	91.538960
323.000000	92.369327
322.000000	92.386049
321.000000	92.292029
320.000000	92.471692
319.000000	92.801432
318.000000	92.845598
317.000000	93.355360
316.000000	93.658522
315.000000	93.999729
314.000000	94.225564
313.000000	94.651599
312.000000	94.753873
311.000000	95.149794
310.000000	95.580927
309.000000	95.884909
308.000000	96.701989
307.000000	97.825805
306.000000	98.718072
305.000000	99.871966
304.000000	100.801940
303.000000	102.041186
302.000000	102.453746
301.000000	102.814373
300.000000	103.152617
299.000000	103.993328
298.000000	104.606143
297.000000	105.467180
296.000000	105.860505
295.000000	106.441858
294.000000	106.861430
293.000000	107.549846
292.000000	108.101332
291.000000	108.785687
290.000000	109.438522
289.000000	109.898328
288.000000	110.428731
287.000000	111.109436
286.000000	111.568285
285.000000	112.066518
284.000000	113.144753
283.000000	113.480140
282.000000	113.836492
281.000000	114.227478
280.000000	114.733555
279.000000	115.199329
278.000000	115.614000
277.000000	115.668154
276.000000	116.156253
275.000000	116.097231
274.000000	116.740167
273.000000	116.926530
272.000000	117.509050
271.000000	117.921836
270.000000	118.391015
269.000000	118.703227
268.000000	119.558554
267.000000	120.122424
266.000000	121.054095
265.000000	122.253228
264.000000	123.803161
263.000000	124.977955
262.000000	126.628543
261.000000	127.978599
260.000000	129.450868
259.000000	131.285622
258.000000	132.533733
257.000000	134.648104
256.000000	136.327408
255.000000	138.306036
254.000000	140.024179
253.000000	141.894462
252.000000	144.042723
251.000000	146.366325
250.000000	148.847088
249.000000	151.187248
248.000000	153.046733
247.000000	154.533521
246.000000	155.911969
245.000000	158.142733
244.000000	160.241561
243.000000	161.592124
242.000000	166.187852
241.000000	168.432937
240.000000	171.222253
239.000000	173.878603
238.000000	177.545720
237.000000	181.157860
236.000000	185.300028
235.000000	190.039415
234.000000	195.334763
233.000000	200.122559
232.000000	203.875497
231.000000	207.809634
230.000000	211.532254
229.000000	215.996850
228.000000	219.739817
227.000000	224.067045
226.000000	229.119639
225.000000	233.320463
224.000000	238.012881
223.000000	242.092479
222.000000	246.596643
221.000000	251.303241
220.000000	255.132273
219.000000	258.507030
218.000000	262.551871
217.000000	267.570848
216.000000	271.441622
215.000000	275.323593
214.000000	279.331629
213.000000	285.200514
212.000000	290.013280
211.000000	295.620829
210.000000	302.488580
209.000000	310.416324
208.000000	318.800392
207.000000	327.225516
206.000000	338.100344
205.000000	349.458123
204.000000	362.628944
203.000000	376.544365
202.000000	391.902721
201.000000	408.934929
200.000000	426.948068
