PE UV       SUBTECH     SPECTRUM    ASCII       PEDS        4.00        
   -1
b.Sample.asc
22/05/06
15:16:14.00
22/05/06
15:16:14.00
Administrator

200.000000
1
Lambda 1050
1050L1808311
PerkinElmer UV WinLab 6.4.0.973 / 2.02.11 Lambda 900 UV/VIS/NIR. May 23 2018 11:23:04

0
0
3350/servo 860.8/2
0
0
UV/VIS
1
1
1
CommonBeamDepol.RBeamAtt.SBeamAtt.60mm sphere
0
0
0
0
Program
Program
3350/servo 860.8/2
3350/0.2 860.8/0.2
3350/0.2 860.8/0.2
0
1.00
 
 
 
0
 
860.8
319.2
860.8
Front
100
on
S:100 R:100
 
0
0
0
 
0
 
 
 
0
 
 
0
0
0
0
0
 
 
 
 
0
0


0
0
#HDR
-1
-1
#GR
nm
%T
1.0
0.0
2000.000000
-1.000000
1801
8
400.732655
58.425380
#DATA
2000.000000	88.322032
1999.000000	88.295674
1998.000000	88.408326
1997.000000	88.293649
1996.000000	88.364176
1995.000000	88.333473
1994.000000	88.345656
1993.000000	88.369157
1992.000000	88.437101
1991.000000	88.439708
1990.000000	88.460174
1989.000000	88.452606
1988.000000	88.441609
1987.000000	88.444628
1986.000000	88.517455
1985.000000	88.463474
1984.000000	88.489365
1983.000000	88.488192
1982.000000	88.478376
1981.000000	88.496507
1980.000000	88.513505
1979.000000	88.542225
1978.000000	88.577174
1977.000000	88.560003
1976.000000	88.605807
1975.000000	88.647307
1974.000000	88.716992
1973.000000	88.647908
1972.000000	88.717286
1971.000000	88.738946
1970.000000	88.655879
1969.000000	88.701031
1968.000000	88.788360
1967.000000	88.733269
1966.000000	88.747147
1965.000000	88.821572
1964.000000	88.773450
1963.000000	88.788742
1962.000000	88.852529
1961.000000	88.809540
1960.000000	88.793161
1959.000000	88.728379
1958.000000	88.856893
1957.000000	88.785667
1956.000000	88.775067
1955.000000	88.816976
1954.000000	88.826529
1953.000000	88.822162
1952.000000	88.850778
1951.000000	88.811662
1950.000000	88.872348
1949.000000	88.903773
1948.000000	88.877350
1947.000000	88.907764
1946.000000	88.884444
1945.000000	88.915637
1944.000000	88.986536
1943.000000	88.962928
1942.000000	89.032201
1941.000000	89.000566
1940.000000	89.004308
1939.000000	89.024713
1938.000000	89.048047
1937.000000	89.083136
1936.000000	89.149541
1935.000000	89.115793
1934.000000	89.170859
1933.000000	89.226085
1932.000000	89.242495
1931.000000	89.326021
1930.000000	89.277267
1929.000000	89.241357
1928.000000	89.286995
1927.000000	89.274864
1926.000000	89.226564
1925.000000	89.257542
1924.000000	89.171840
1923.000000	89.123284
1922.000000	89.177289
1921.000000	89.162568
1920.000000	89.170694
1919.000000	89.160935
1918.000000	89.186030
1917.000000	89.155769
1916.000000	89.211637
1915.000000	89.177269
1914.000000	89.176691
1913.000000	89.216082
1912.000000	89.172509
1911.000000	89.177425
1910.000000	89.211500
1909.000000	89.195924
1908.000000	89.225495
1907.000000	89.217094
1906.000000	89.232168
1905.000000	89.259262
1904.000000	89.314211
1903.000000	89.243339
1902.000000	89.260842
1901.000000	89.269698
1900.000000	89.277598
1899.000000	89.247632
1898.000000	89.252835
1897.000000	89.249382
1896.000000	89.246866
1895.000000	89.251498
1894.000000	89.273351
1893.000000	89.244878
1892.000000	89.269851
1891.000000	89.217574
1890.000000	89.181189
1889.000000	89.192802
1888.000000	89.224826
1887.000000	89.263166
1886.000000	89.292074
1885.000000	89.279148
1884.000000	89.236364
1883.000000	89.213443
1882.000000	89.194572
1881.000000	89.168717
1880.000000	89.204969
1879.000000	89.208538
1878.000000	89.192740
1877.000000	89.177504
1876.000000	89.197841
1875.000000	89.161702
1874.000000	89.158071
1873.000000	89.177866
1872.000000	89.153570
1871.000000	89.113363
1870.000000	89.101048
1869.000000	89.090441
1868.000000	89.058927
1867.000000	89.053419
1866.000000	89.064798
1865.000000	89.055078
1864.000000	89.052665
1863.000000	89.041679
1862.000000	89.032542
1861.000000	89.025819
1860.000000	89.010910
1859.000000	88.986014
1858.000000	88.968653
1857.000000	88.953242
1856.000000	88.915738
1855.000000	88.916716
1854.000000	88.951315
1853.000000	88.940720
1852.000000	88.939157
1851.000000	88.966202
1850.000000	88.947519
1849.000000	88.904723
1848.000000	88.862648
1847.000000	88.888963
1846.000000	88.876329
1845.000000	88.852890
1844.000000	88.836802
1843.000000	88.850390
1842.000000	88.847096
1841.000000	88.844075
1840.000000	88.841560
1839.000000	88.823829
1838.000000	88.845215
1837.000000	88.855917
1836.000000	88.821147
1835.000000	88.798437
1834.000000	88.788276
1833.000000	88.755221
1832.000000	88.749756
1831.000000	88.763246
1830.000000	88.773770
1829.000000	88.769324
1828.000000	88.751681
1827.000000	88.737391
1826.000000	88.721763
1825.000000	88.716771
1824.000000	88.697875
1823.000000	88.699892
1822.000000	88.648807
1821.000000	88.621492
1820.000000	88.611957
1819.000000	88.583886
1818.000000	88.550837
1817.000000	88.551133
1816.000000	88.553310
1815.000000	88.549829
1814.000000	88.496561
1813.000000	88.477709
1812.000000	88.473545
1811.000000	88.457804
1810.000000	88.439377
1809.000000	88.431274
1808.000000	88.411920
1807.000000	88.414143
1806.000000	88.389983
1805.000000	88.374439
1804.000000	88.346088
1803.000000	88.349957
1802.000000	88.350404
1801.000000	88.331730
1800.000000	88.286539
1799.000000	88.293301
1798.000000	88.254021
1797.000000	88.241973
1796.000000	88.221872
1795.000000	88.213888
1794.000000	88.208718
1793.000000	88.210273
1792.000000	88.193073
1791.000000	88.165541
1790.000000	88.117493
1789.000000	88.095823
1788.000000	88.132350
1787.000000	88.098538
1786.000000	88.064416
1785.000000	88.051006
1784.000000	88.012970
1783.000000	88.002269
1782.000000	87.970225
1781.000000	87.975460
1780.000000	87.952778
1779.000000	87.942483
1778.000000	87.939654
1777.000000	87.919200
1776.000000	87.890645
1775.000000	87.874831
1774.000000	87.832901
1773.000000	87.845447
1772.000000	87.840138
1771.000000	87.840701
1770.000000	87.815143
1769.000000	87.773804
1768.000000	87.752836
1767.000000	87.760171
1766.000000	87.753674
1765.000000	87.777389
1764.000000	87.722165
1763.000000	87.732930
1762.000000	87.692221
1761.000000	87.715415
1760.000000	87.669468
1759.000000	87.642504
1758.000000	87.625050
1757.000000	87.644649
1756.000000	87.641900
1755.000000	87.603405
1754.000000	87.561509
1753.000000	87.571369
1752.000000	87.511743
1751.000000	87.530975
1750.000000	87.508224
1749.000000	87.493193
1748.000000	87.470905
1747.000000	87.469792
1746.000000	87.448082
1745.000000	87.467527
1744.000000	87.432359
1743.000000	87.427596
1742.000000	87.379394
1741.000000	87.403766
1740.000000	87.339946
1739.000000	87.326762
1738.000000	87.311359
1737.000000	87.292183
1736.000000	87.277588
1735.000000	87.264943
1734.000000	87.238630
1733.000000	87.247170
1732.000000	87.201493
1731.000000	87.226454
1730.000000	87.149452
1729.000000	87.214315
1728.000000	87.148888
1727.000000	87.105307
1726.000000	87.123878
1725.000000	87.155908
1724.000000	87.073891
1723.000000	87.085315
1722.000000	87.037444
1721.000000	87.056901
1720.000000	87.059159
1719.000000	87.053267
1718.000000	86.999406
1717.000000	86.997930
1716.000000	86.928236
1715.000000	86.941871
1714.000000	86.925743
1713.000000	86.908112
1712.000000	86.859424
1711.000000	86.839596
1710.000000	86.819019
1709.000000	86.811828
1708.000000	86.766785
1707.000000	86.792609
1706.000000	86.765518
1705.000000	86.711687
1704.000000	86.657954
1703.000000	86.646925
1702.000000	86.653656
1701.000000	86.621445
1700.000000	86.531661
1699.000000	86.532754
1698.000000	86.479178
1697.000000	86.473246
1696.000000	86.457650
1695.000000	86.454313
1694.000000	86.413249
1693.000000	86.416074
1692.000000	86.370052
1691.000000	86.376538
1690.000000	86.306706
1689.000000	86.300509
1688.000000	86.272162
1687.000000	86.271552
1686.000000	86.243093
1685.000000	86.263514
1684.000000	86.225710
1683.000000	86.209562
1682.000000	86.152341
1681.000000	86.171514
1680.000000	86.128917
1679.000000	86.177597
1678.000000	86.154510
1677.000000	86.156629
1676.000000	86.123173
1675.000000	86.116973
1674.000000	86.104062
1673.000000	86.137508
1672.000000	86.110991
1671.000000	86.115463
1670.000000	86.120695
1669.000000	86.143691
1668.000000	86.102994
1667.000000	86.130928
1666.000000	86.105850
1665.000000	86.102290
1664.000000	86.109633
1663.000000	86.135467
1662.000000	86.124438
1661.000000	86.123649
1660.000000	86.126850
1659.000000	86.118420
1658.000000	86.111846
1657.000000	86.105463
1656.000000	86.094799
1655.000000	86.092070
1654.000000	86.062929
1653.000000	86.084733
1652.000000	86.074066
1651.000000	86.076444
1650.000000	86.065559
1649.000000	86.078068
1648.000000	86.052131
1647.000000	86.041694
1646.000000	86.038447
1645.000000	86.057157
1644.000000	86.044859
1643.000000	86.050551
1642.000000	86.033479
1641.000000	86.042691
1640.000000	86.034123
1639.000000	86.038615
1638.000000	86.042102
1637.000000	86.052488
1636.000000	86.029932
1635.000000	86.026365
1634.000000	86.026350
1633.000000	86.037712
1632.000000	86.041369
1631.000000	86.048129
1630.000000	86.058641
1629.000000	86.058945
1628.000000	86.051600
1627.000000	86.086725
1626.000000	86.068109
1625.000000	86.066041
1624.000000	86.063779
1623.000000	86.056851
1622.000000	86.085413
1621.000000	86.084744
1620.000000	86.085887
1619.000000	86.115420
1618.000000	86.126352
1617.000000	86.127841
1616.000000	86.121290
1615.000000	86.118891
1614.000000	86.132194
1613.000000	86.143907
1612.000000	86.150936
1611.000000	86.165467
1610.000000	86.166276
1609.000000	86.166796
1608.000000	86.167840
1607.000000	86.199404
1606.000000	86.208728
1605.000000	86.207776
1604.000000	86.208613
1603.000000	86.226193
1602.000000	86.235563
1601.000000	86.227078
1600.000000	86.243291
1599.000000	86.259187
1598.000000	86.281415
1597.000000	86.314759
1596.000000	86.317768
1595.000000	86.326913
1594.000000	86.326987
1593.000000	86.346307
1592.000000	86.382834
1591.000000	86.392969
1590.000000	86.388612
1589.000000	86.396751
1588.000000	86.426615
1587.000000	86.452483
1586.000000	86.468905
1585.000000	86.481415
1584.000000	86.484078
1583.000000	86.506667
1582.000000	86.530229
1581.000000	86.542037
1580.000000	86.554381
1579.000000	86.553856
1578.000000	86.565595
1577.000000	86.591167
1576.000000	86.599195
1575.000000	86.629212
1574.000000	86.656728
1573.000000	86.678175
1572.000000	86.704875
1571.000000	86.712251
1570.000000	86.718920
1569.000000	86.730824
1568.000000	86.750710
1567.000000	86.781846
1566.000000	86.814493
1565.000000	86.844440
1564.000000	86.870558
1563.000000	86.888165
1562.000000	86.902973
1561.000000	86.924913
1560.000000	86.950685
1559.000000	86.962162
1558.000000	86.983408
1557.000000	87.009661
1556.000000	87.028887
1555.000000	87.019558
1554.000000	86.968982
1553.000000	86.866201
1552.000000	86.705558
1551.000000	86.644124
1550.000000	86.678853
1549.000000	86.698576
1548.000000	86.719903
1547.000000	86.755627
1546.000000	86.783311
1545.000000	86.795779
1544.000000	86.819234
1543.000000	86.851889
1542.000000	86.873476
1541.000000	86.756536
1540.000000	86.724241
1539.000000	86.756753
1538.000000	86.780714
1537.000000	86.832974
1536.000000	86.946876
1535.000000	87.092212
1534.000000	87.170974
1533.000000	87.202489
1532.000000	87.242265
1531.000000	87.255164
1530.000000	87.279010
1529.000000	87.162428
1528.000000	87.121582
1527.000000	87.144603
1526.000000	87.175743
1525.000000	87.196460
1524.000000	87.363740
1523.000000	87.456022
1522.000000	87.476061
1521.000000	87.475968
1520.000000	87.341168
1519.000000	87.305223
1518.000000	87.509984
1517.000000	87.611822
1516.000000	87.643258
1515.000000	87.489662
1514.000000	87.457433
1513.000000	87.658031
1512.000000	87.755221
1511.000000	87.762911
1510.000000	87.635957
1509.000000	87.619510
1508.000000	87.830671
1507.000000	87.914925
1506.000000	87.962250
1505.000000	87.787797
1504.000000	87.937721
1503.000000	88.017621
1502.000000	88.033829
1501.000000	88.051147
1500.000000	87.909430
1499.000000	88.058867
1498.000000	88.141259
1497.000000	88.149242
1496.000000	88.168371
1495.000000	88.174086
1494.000000	88.060735
1493.000000	88.036532
1492.000000	88.242079
1491.000000	88.308713
1490.000000	88.356789
1489.000000	88.397962
1488.000000	88.431270
1487.000000	88.461508
1486.000000	88.511045
1485.000000	88.326844
1484.000000	88.298387
1483.000000	88.332504
1482.000000	88.361205
1481.000000	88.396009
1480.000000	88.616037
1479.000000	88.660992
1478.000000	88.686053
1477.000000	88.690148
1476.000000	88.718852
1475.000000	88.727777
1474.000000	88.743901
1473.000000	88.738917
1472.000000	88.770580
1471.000000	88.783604
1470.000000	88.807110
1469.000000	88.835589
1468.000000	88.870376
1467.000000	88.694295
1466.000000	88.908153
1465.000000	88.920685
1464.000000	88.934985
1463.000000	88.930721
1462.000000	88.969962
1461.000000	88.798232
1460.000000	88.986768
1459.000000	89.042467
1458.000000	89.053031
1457.000000	89.063291
1456.000000	89.084530
1455.000000	89.087773
1454.000000	88.897249
1453.000000	89.103822
1452.000000	89.149532
1451.000000	89.159271
1450.000000	89.179305
1449.000000	89.162087
1448.000000	89.211823
1447.000000	89.193104
1446.000000	89.209756
1445.000000	89.206919
1444.000000	89.241434
1443.000000	89.237129
1442.000000	89.266227
1441.000000	89.032502
1440.000000	89.080176
1439.000000	89.073233
1438.000000	89.296194
1437.000000	89.318934
1436.000000	89.326078
1435.000000	89.297597
1434.000000	89.335220
1433.000000	89.335271
1432.000000	89.336484
1431.000000	89.331220
1430.000000	89.362129
1429.000000	89.352511
1428.000000	89.336310
1427.000000	89.339139
1426.000000	89.384672
1425.000000	89.349001
1424.000000	89.361722
1423.000000	89.362822
1422.000000	89.364085
1421.000000	89.318669
1420.000000	89.343915
1419.000000	89.168325
1418.000000	89.306982
1417.000000	89.335019
1416.000000	89.323256
1415.000000	89.263028
1414.000000	89.265318
1413.000000	89.266923
1412.000000	89.099079
1411.000000	89.077064
1410.000000	89.304110
1409.000000	89.441113
1408.000000	89.226546
1407.000000	89.197027
1406.000000	89.171293
1405.000000	89.157970
1404.000000	88.976132
1403.000000	88.936755
1402.000000	89.135514
1401.000000	89.104002
1400.000000	89.111446
1399.000000	89.099818
1398.000000	89.101391
1397.000000	89.047430
1396.000000	89.061969
1395.000000	89.000349
1394.000000	88.993691
1393.000000	88.951918
1392.000000	88.932857
1391.000000	88.903801
1390.000000	88.874668
1389.000000	88.845834
1388.000000	88.842315
1387.000000	88.827576
1386.000000	88.801350
1385.000000	88.778116
1384.000000	88.746388
1383.000000	88.740552
1382.000000	88.737075
1381.000000	88.693163
1380.000000	88.678573
1379.000000	88.646120
1378.000000	88.504890
1377.000000	88.462255
1376.000000	88.612688
1375.000000	88.578401
1374.000000	88.536227
1373.000000	88.502930
1372.000000	88.478521
1371.000000	88.442981
1370.000000	88.440342
1369.000000	88.381532
1368.000000	88.285360
1367.000000	88.089709
1366.000000	88.040502
1365.000000	88.014204
1364.000000	87.998418
1363.000000	88.006040
1362.000000	88.178419
1361.000000	88.142851
1360.000000	88.110556
1359.000000	88.007005
1358.000000	87.884579
1357.000000	88.052132
1356.000000	88.017588
1355.000000	87.978849
1354.000000	87.950238
1353.000000	87.934181
1352.000000	87.921892
1351.000000	87.861560
1350.000000	87.824276
1349.000000	87.816824
1348.000000	87.825781
1347.000000	87.798608
1346.000000	87.791766
1345.000000	87.776284
1344.000000	87.697828
1343.000000	87.593836
1342.000000	87.739939
1341.000000	87.768624
1340.000000	87.619098
1339.000000	87.565474
1338.000000	87.642902
1337.000000	87.632106
1336.000000	87.609883
1335.000000	87.639871
1334.000000	87.680821
1333.000000	87.585166
1332.000000	87.581507
1331.000000	87.537879
1330.000000	87.520304
1329.000000	87.507401
1328.000000	87.511906
1327.000000	87.483660
1326.000000	87.439534
1325.000000	87.423149
1324.000000	87.407435
1323.000000	87.391266
1322.000000	87.367501
1321.000000	87.336824
1320.000000	87.339049
1319.000000	87.338047
1318.000000	87.317150
1317.000000	87.290477
1316.000000	87.256525
1315.000000	87.235720
1314.000000	87.231568
1313.000000	87.198954
1312.000000	87.176307
1311.000000	87.162661
1310.000000	87.158033
1309.000000	87.155301
1308.000000	87.150504
1307.000000	87.131982
1306.000000	87.118289
1305.000000	87.103176
1304.000000	87.080076
1303.000000	87.070639
1302.000000	87.061096
1301.000000	87.055951
1300.000000	87.054360
1299.000000	87.005046
1298.000000	86.992626
1297.000000	87.046869
1296.000000	87.044604
1295.000000	87.097207
1294.000000	87.105550
1293.000000	87.014306
1292.000000	87.005243
1291.000000	87.010564
1290.000000	87.002165
1289.000000	87.001384
1288.000000	87.014239
1287.000000	87.015170
1286.000000	87.013282
1285.000000	87.019840
1284.000000	87.030545
1283.000000	87.032788
1282.000000	87.038112
1281.000000	87.060316
1280.000000	87.062816
1279.000000	87.070252
1278.000000	87.083787
1277.000000	87.103181
1276.000000	87.106138
1275.000000	87.113530
1274.000000	87.122345
1273.000000	87.134233
1272.000000	87.139599
1271.000000	87.145034
1270.000000	87.143251
1269.000000	87.147107
1268.000000	87.146083
1267.000000	87.157976
1266.000000	87.178850
1265.000000	87.192513
1264.000000	87.221598
1263.000000	87.234129
1262.000000	87.233514
1261.000000	87.255656
1260.000000	87.291932
1259.000000	87.328585
1258.000000	87.348452
1257.000000	87.367011
1256.000000	87.376173
1255.000000	87.395907
1254.000000	87.417699
1253.000000	87.447474
1252.000000	87.468177
1251.000000	87.501273
1250.000000	87.519453
1249.000000	87.538513
1248.000000	87.563322
1247.000000	87.573897
1246.000000	87.597931
1245.000000	87.638995
1244.000000	87.688011
1243.000000	87.730954
1242.000000	87.744170
1241.000000	87.762178
1240.000000	87.783968
1239.000000	87.822996
1238.000000	87.847523
1237.000000	87.893692
1236.000000	87.905007
1235.000000	87.948595
1234.000000	87.957460
1233.000000	88.003465
1232.000000	88.037725
1231.000000	88.078692
1230.000000	88.107627
1229.000000	88.137796
1228.000000	88.170594
1227.000000	88.202670
1226.000000	88.147787
1225.000000	88.228553
1224.000000	88.314522
1223.000000	88.347577
1222.000000	88.377524
1221.000000	88.416703
1220.000000	88.438045
1219.000000	88.493950
1218.000000	88.510973
1217.000000	88.541880
1216.000000	88.591765
1215.000000	88.638069
1214.000000	88.662524
1213.000000	88.705977
1212.000000	88.745171
1211.000000	88.751352
1210.000000	88.778412
1209.000000	88.825417
1208.000000	88.797202
1207.000000	88.927293
1206.000000	88.975382
1205.000000	89.008760
1204.000000	89.033365
1203.000000	89.059974
1202.000000	89.093130
1201.000000	89.136577
1200.000000	89.176768
1199.000000	89.232780
1198.000000	89.262708
1197.000000	89.280153
1196.000000	89.315115
1195.000000	89.358730
1194.000000	89.363981
1193.000000	89.389293
1192.000000	89.418611
1191.000000	89.446049
1190.000000	89.496632
1189.000000	89.504825
1188.000000	89.523200
1187.000000	89.550314
1186.000000	89.575590
1185.000000	89.595610
1184.000000	89.628326
1183.000000	89.653583
1182.000000	89.676409
1181.000000	89.705193
1180.000000	89.724112
1179.000000	89.742338
1178.000000	89.766933
1177.000000	89.789008
1176.000000	89.787537
1175.000000	89.798430
1174.000000	89.803643
1173.000000	89.818460
1172.000000	89.829488
1171.000000	89.851369
1170.000000	89.839197
1169.000000	89.842596
1168.000000	89.867199
1167.000000	89.908820
1166.000000	89.901584
1165.000000	89.931677
1164.000000	89.911720
1163.000000	89.901303
1162.000000	89.914473
1161.000000	89.823883
1160.000000	89.831749
1159.000000	89.946109
1158.000000	89.947723
1157.000000	89.973572
1156.000000	89.967443
1155.000000	89.937129
1154.000000	89.912170
1153.000000	89.920064
1152.000000	89.874499
1151.000000	89.923892
1150.000000	89.819940
1149.000000	89.891223
1148.000000	89.880977
1147.000000	89.882806
1146.000000	89.863618
1145.000000	89.841796
1144.000000	89.836451
1143.000000	89.816914
1142.000000	89.819904
1141.000000	89.810060
1140.000000	89.785864
1139.000000	89.665827
1138.000000	89.630338
1137.000000	89.729209
1136.000000	89.713274
1135.000000	89.719106
1134.000000	89.708201
1133.000000	89.689075
1132.000000	89.651977
1131.000000	89.626427
1130.000000	89.583300
1129.000000	89.439265
1128.000000	89.424585
1127.000000	89.537313
1126.000000	89.492927
1125.000000	89.481257
1124.000000	89.431111
1123.000000	89.407628
1122.000000	89.367397
1121.000000	89.345553
1120.000000	89.293211
1119.000000	89.271281
1118.000000	89.249508
1117.000000	89.241360
1116.000000	89.215797
1115.000000	89.189073
1114.000000	89.126339
1113.000000	89.102506
1112.000000	89.061911
1111.000000	89.030703
1110.000000	89.001509
1109.000000	88.992789
1108.000000	88.960724
1107.000000	88.949938
1106.000000	88.912027
1105.000000	88.897059
1104.000000	88.859038
1103.000000	88.816893
1102.000000	88.680830
1101.000000	88.666519
1100.000000	88.631216
1099.000000	88.677737
1098.000000	88.662285
1097.000000	88.645163
1096.000000	88.645344
1095.000000	88.574506
1094.000000	88.445532
1093.000000	88.427643
1092.000000	88.445149
1091.000000	88.489682
1090.000000	88.490101
1089.000000	88.469330
1088.000000	88.400444
1087.000000	88.253793
1086.000000	88.260982
1085.000000	88.361888
1084.000000	88.332262
1083.000000	88.322277
1082.000000	88.281865
1081.000000	88.156439
1080.000000	88.154890
1079.000000	88.168879
1078.000000	88.237407
1077.000000	88.243085
1076.000000	88.201312
1075.000000	88.070087
1074.000000	88.027527
1073.000000	88.054472
1072.000000	88.149897
1071.000000	88.161285
1070.000000	88.116836
1069.000000	88.026878
1068.000000	88.029366
1067.000000	88.067676
1066.000000	88.162645
1065.000000	88.159968
1064.000000	88.170257
1063.000000	88.122148
1062.000000	88.005268
1061.000000	88.028957
1060.000000	88.074823
1059.000000	88.189027
1058.000000	88.194216
1057.000000	88.156361
1056.000000	88.039265
1055.000000	88.101589
1054.000000	88.225457
1053.000000	88.216749
1052.000000	88.111323
1051.000000	88.112344
1050.000000	88.176640
1049.000000	88.309900
1048.000000	88.285588
1047.000000	88.211926
1046.000000	88.218484
1045.000000	88.302465
1044.000000	88.374421
1043.000000	88.275368
1042.000000	88.334248
1041.000000	88.464483
1040.000000	88.438825
1039.000000	88.377360
1038.000000	88.462519
1037.000000	88.529396
1036.000000	88.437905
1035.000000	88.478042
1034.000000	88.568871
1033.000000	88.656588
1032.000000	88.595019
1031.000000	88.610601
1030.000000	88.619434
1029.000000	88.660312
1028.000000	88.695062
1027.000000	88.749288
1026.000000	88.792702
1025.000000	88.882199
1024.000000	88.940629
1023.000000	88.868936
1022.000000	88.907020
1021.000000	88.948201
1020.000000	88.981839
1019.000000	89.017764
1018.000000	89.055508
1017.000000	89.092713
1016.000000	89.143452
1015.000000	89.188293
1014.000000	89.239152
1013.000000	89.284826
1012.000000	89.319154
1011.000000	89.342091
1010.000000	89.380832
1009.000000	89.342437
1008.000000	89.366368
1007.000000	89.517327
1006.000000	89.467355
1005.000000	89.494192
1004.000000	89.729261
1003.000000	89.782074
1002.000000	89.638806
1001.000000	89.594715
1000.000000	89.726441
999.000000	89.867357
998.000000	89.867305
997.000000	89.926446
996.000000	90.025234
995.000000	90.022192
994.000000	90.120220
993.000000	90.325206
992.000000	90.470361
991.000000	90.541131
990.000000	90.573679
989.000000	90.600598
988.000000	90.625276
987.000000	90.640371
986.000000	90.656499
985.000000	90.659032
984.000000	90.651829
983.000000	90.646517
982.000000	90.667422
981.000000	90.685495
980.000000	90.675598
979.000000	90.647783
978.000000	90.648328
977.000000	90.649919
976.000000	90.648189
975.000000	90.640362
974.000000	90.647409
973.000000	90.619084
972.000000	90.608137
971.000000	90.607569
970.000000	90.599802
969.000000	90.577518
968.000000	90.548121
967.000000	90.531061
966.000000	90.515490
965.000000	90.507946
964.000000	90.489010
963.000000	90.444203
962.000000	90.417885
961.000000	90.387187
960.000000	90.346693
959.000000	90.295706
958.000000	90.272351
957.000000	90.251822
956.000000	90.205424
955.000000	90.175239
954.000000	90.148966
953.000000	90.114427
952.000000	90.095068
951.000000	90.035338
950.000000	89.991528
949.000000	89.952136
948.000000	89.905498
947.000000	89.879192
946.000000	89.851944
945.000000	89.825970
944.000000	89.783533
943.000000	89.723838
942.000000	89.687637
941.000000	89.648113
940.000000	89.640013
939.000000	89.583815
938.000000	89.552475
937.000000	89.495016
936.000000	89.464075
935.000000	89.420209
934.000000	89.399898
933.000000	89.366464
932.000000	89.338947
931.000000	89.266277
930.000000	89.242000
929.000000	89.202013
928.000000	89.151523
927.000000	89.106301
926.000000	89.110433
925.000000	89.085240
924.000000	89.047548
923.000000	89.024323
922.000000	88.997567
921.000000	88.976732
920.000000	88.968372
919.000000	88.916724
918.000000	88.903681
917.000000	88.869489
916.000000	88.886999
915.000000	88.857948
914.000000	88.882293
913.000000	88.825172
912.000000	88.863743
911.000000	88.803222
910.000000	88.781283
909.000000	88.799158
908.000000	88.840250
907.000000	88.814739
906.000000	88.828598
905.000000	88.812353
904.000000	88.826912
903.000000	88.817603
902.000000	88.864403
901.000000	88.862773
900.000000	88.917803
899.000000	88.888889
898.000000	88.951504
897.000000	88.979303
896.000000	89.009372
895.000000	89.020164
894.000000	89.094700
893.000000	89.019506
892.000000	89.101383
891.000000	89.091998
890.000000	89.191114
889.000000	89.127361
888.000000	89.182528
887.000000	89.160556
886.000000	89.287429
885.000000	89.294862
884.000000	89.353702
883.000000	89.421182
882.000000	89.357418
881.000000	89.485956
880.000000	89.505224
879.000000	89.501295
878.000000	89.635660
877.000000	89.616208
876.000000	89.668637
875.000000	89.673719
874.000000	89.695383
873.000000	89.754797
872.000000	89.847696
871.000000	89.816705
870.000000	89.914023
869.000000	89.877801
868.000000	89.940970
867.000000	89.895519
866.000000	90.004499
865.000000	90.088339
864.000000	90.153840
863.000000	90.118732
862.000000	90.217763
861.000000	90.180650
860.000000	89.249278
859.000000	89.955180
858.000000	89.760437
857.000000	90.162900
856.000000	89.722824
855.000000	89.707062
854.000000	89.981959
853.000000	90.192498
852.000000	90.637287
851.000000	90.177317
850.000000	89.758272
849.000000	89.923856
848.000000	90.353422
847.000000	89.931107
846.000000	89.740302
845.000000	89.671670
844.000000	90.108927
843.000000	89.944803
842.000000	89.779694
841.000000	89.841419
840.000000	89.877338
839.000000	89.964667
838.000000	89.707428
837.000000	89.517905
836.000000	89.849793
835.000000	89.622733
834.000000	89.746629
833.000000	89.516647
832.000000	89.433142
831.000000	89.414892
830.000000	89.237582
829.000000	89.007921
828.000000	89.329088
827.000000	89.220600
826.000000	89.182919
825.000000	89.051994
824.000000	89.088757
823.000000	89.034480
822.000000	88.441233
821.000000	88.555514
820.000000	88.614565
819.000000	88.801312
818.000000	88.808924
817.000000	88.573854
816.000000	88.688013
815.000000	88.487025
814.000000	88.280866
813.000000	88.245863
812.000000	88.320208
811.000000	88.263820
810.000000	88.180835
809.000000	88.316424
808.000000	88.151885
807.000000	88.098175
806.000000	87.997534
805.000000	87.983541
804.000000	87.836971
803.000000	87.967125
802.000000	88.036931
801.000000	88.038337
800.000000	87.866470
799.000000	87.836005
798.000000	88.002943
797.000000	88.015206
796.000000	87.921412
795.000000	87.745130
794.000000	87.784208
793.000000	87.762669
792.000000	87.866480
791.000000	87.838885
790.000000	87.794246
789.000000	87.730824
788.000000	87.749909
787.000000	87.723729
786.000000	87.706015
785.000000	87.619218
784.000000	87.907222
783.000000	88.115649
782.000000	87.986480
781.000000	87.912079
780.000000	87.996343
779.000000	88.091742
778.000000	88.175072
777.000000	88.037791
776.000000	88.173676
775.000000	88.174564
774.000000	88.202409
773.000000	88.219988
772.000000	88.417028
771.000000	88.282702
770.000000	88.295371
769.000000	88.374792
768.000000	88.484411
767.000000	88.740166
766.000000	88.602022
765.000000	88.548336
764.000000	88.579471
763.000000	88.657863
762.000000	88.722234
761.000000	88.803055
760.000000	88.812957
759.000000	88.794445
758.000000	88.734041
757.000000	88.848718
756.000000	88.945552
755.000000	88.921832
754.000000	88.889189
753.000000	88.791899
752.000000	88.780760
751.000000	88.841519
750.000000	88.870833
749.000000	88.793558
748.000000	88.690344
747.000000	88.859698
746.000000	88.944365
745.000000	88.727311
744.000000	88.702190
743.000000	88.616199
742.000000	88.619073
741.000000	88.626241
740.000000	88.573518
739.000000	88.392840
738.000000	88.374111
737.000000	88.356614
736.000000	88.321398
735.000000	88.257245
734.000000	88.166875
733.000000	88.010979
732.000000	87.978224
731.000000	87.923593
730.000000	87.855305
729.000000	87.701041
728.000000	87.590619
727.000000	87.546012
726.000000	87.479308
725.000000	87.512216
724.000000	87.486341
723.000000	87.339041
722.000000	87.212764
721.000000	87.170953
720.000000	87.157341
719.000000	87.033591
718.000000	86.881117
717.000000	86.790761
716.000000	86.745806
715.000000	86.783480
714.000000	86.787212
713.000000	86.716848
712.000000	86.733653
711.000000	86.710953
710.000000	86.586837
709.000000	86.610916
708.000000	86.659586
707.000000	86.542357
706.000000	86.433635
705.000000	86.382724
704.000000	86.437832
703.000000	86.438474
702.000000	86.455617
701.000000	86.526060
700.000000	86.554387
699.000000	86.535803
698.000000	86.563424
697.000000	86.596535
696.000000	86.581266
695.000000	86.656177
694.000000	86.694555
693.000000	86.718731
692.000000	86.778227
691.000000	86.777724
690.000000	86.705703
689.000000	86.761756
688.000000	86.866764
687.000000	86.856711
686.000000	86.931811
685.000000	87.011425
684.000000	87.099759
683.000000	87.111376
682.000000	87.096489
681.000000	87.013129
680.000000	87.072592
679.000000	87.170288
678.000000	87.183298
677.000000	87.118374
676.000000	87.066249
675.000000	87.065950
674.000000	87.064528
673.000000	87.064194
672.000000	87.054152
671.000000	86.982432
670.000000	86.933976
669.000000	87.009772
668.000000	86.926791
667.000000	86.905185
666.000000	86.874255
665.000000	86.826568
664.000000	86.764435
663.000000	86.628660
662.000000	86.485692
661.000000	86.392056
660.000000	86.257971
659.000000	86.284346
658.000000	86.180526
657.000000	86.070756
656.000000	85.956526
655.000000	85.882021
654.000000	85.844926
653.000000	85.750450
652.000000	85.577573
651.000000	85.560105
650.000000	85.415181
649.000000	85.368390
648.000000	85.323093
647.000000	85.264602
646.000000	85.212474
645.000000	85.100145
644.000000	85.062718
643.000000	84.968487
642.000000	84.927176
641.000000	84.942429
640.000000	84.868247
639.000000	84.799061
638.000000	84.785920
637.000000	84.917948
636.000000	84.824449
635.000000	84.821294
634.000000	84.870027
633.000000	84.917025
632.000000	84.960787
631.000000	84.905716
630.000000	84.879471
629.000000	84.954956
628.000000	84.902663
627.000000	84.998261
626.000000	85.064480
625.000000	85.094099
624.000000	85.044006
623.000000	85.053390
622.000000	85.136850
621.000000	85.253596
620.000000	85.259491
619.000000	85.224448
618.000000	85.278971
617.000000	85.285619
616.000000	85.301944
615.000000	85.291960
614.000000	85.311289
613.000000	85.289813
612.000000	85.186144
611.000000	85.170817
610.000000	85.163095
609.000000	85.071335
608.000000	84.972663
607.000000	84.956373
606.000000	84.839422
605.000000	84.781498
604.000000	84.714405
603.000000	84.587112
602.000000	84.497371
601.000000	84.366496
600.000000	84.327058
599.000000	84.236355
598.000000	84.107731
597.000000	83.949021
596.000000	83.882314
595.000000	83.872686
594.000000	83.758528
593.000000	83.642025
592.000000	83.573256
591.000000	83.376359
590.000000	83.423881
589.000000	83.339745
588.000000	83.284146
587.000000	83.338545
586.000000	83.241076
585.000000	83.203938
584.000000	83.233031
583.000000	83.194473
582.000000	83.172337
581.000000	83.267461
580.000000	83.242696
579.000000	83.282495
578.000000	83.371962
577.000000	83.306710
576.000000	83.373559
575.000000	83.421409
574.000000	83.452227
573.000000	83.519902
572.000000	83.493625
571.000000	83.625227
570.000000	83.638005
569.000000	83.614258
568.000000	83.630254
567.000000	83.711596
566.000000	83.639684
565.000000	83.554633
564.000000	83.599769
563.000000	83.636813
562.000000	83.618265
561.000000	83.612997
560.000000	83.513104
559.000000	83.417085
558.000000	83.360666
557.000000	83.265246
556.000000	83.100148
555.000000	83.038249
554.000000	82.915444
553.000000	82.843685
552.000000	82.692049
551.000000	82.606725
550.000000	82.506118
549.000000	82.406275
548.000000	82.272495
547.000000	82.212529
546.000000	82.218030
545.000000	82.107767
544.000000	82.074323
543.000000	82.014728
542.000000	82.016879
541.000000	82.012056
540.000000	82.009218
539.000000	82.007648
538.000000	82.087641
537.000000	82.104624
536.000000	82.135487
535.000000	82.138396
534.000000	82.168187
533.000000	82.263403
532.000000	82.295753
531.000000	82.335032
530.000000	82.374017
529.000000	82.475957
528.000000	82.494766
527.000000	82.488120
526.000000	82.474360
525.000000	82.492984
524.000000	82.424854
523.000000	82.407044
522.000000	82.338902
521.000000	82.214446
520.000000	82.117298
519.000000	82.013167
518.000000	81.870976
517.000000	81.739714
516.000000	81.611486
515.000000	81.524358
514.000000	81.350685
513.000000	81.206414
512.000000	81.042117
511.000000	80.904273
510.000000	80.791102
509.000000	80.703217
508.000000	80.641583
507.000000	80.580619
506.000000	80.478113
505.000000	80.466092
504.000000	80.491117
503.000000	80.497420
502.000000	80.533398
501.000000	80.527324
500.000000	80.614419
499.000000	80.689873
498.000000	80.755546
497.000000	80.851147
496.000000	80.976365
495.000000	81.018438
494.000000	81.053809
493.000000	81.104535
492.000000	81.067067
491.000000	81.131978
490.000000	81.121356
489.000000	81.067102
488.000000	81.002853
487.000000	80.961202
486.000000	80.831181
485.000000	80.665676
484.000000	80.602267
483.000000	80.571882
482.000000	80.460209
481.000000	80.268407
480.000000	80.089652
479.000000	79.870519
478.000000	79.682131
477.000000	79.615945
476.000000	79.558998
475.000000	79.537710
474.000000	79.478288
473.000000	79.421907
472.000000	79.378103
471.000000	79.351136
470.000000	79.345118
469.000000	79.333980
468.000000	79.341729
467.000000	79.308004
466.000000	79.306729
465.000000	79.323871
464.000000	79.229871
463.000000	79.106499
462.000000	78.981855
461.000000	78.890355
460.000000	78.713012
459.000000	78.543266
458.000000	78.321232
457.000000	78.107106
456.000000	77.885311
455.000000	77.737490
454.000000	77.540515
453.000000	77.304452
452.000000	77.212930
451.000000	77.137760
450.000000	77.007074
449.000000	76.969043
448.000000	76.929918
447.000000	76.891885
446.000000	76.902936
445.000000	76.846450
444.000000	76.797158
443.000000	76.731648
442.000000	76.595992
441.000000	76.351248
440.000000	76.093594
439.000000	75.845850
438.000000	75.549794
437.000000	75.130123
436.000000	74.782342
435.000000	74.448734
434.000000	74.117341
433.000000	73.696129
432.000000	73.260614
431.000000	72.899104
430.000000	72.501906
429.000000	72.099501
428.000000	71.640869
427.000000	71.111233
426.000000	70.572704
425.000000	69.929927
424.000000	69.182043
423.000000	68.385673
422.000000	67.484858
421.000000	66.494358
420.000000	65.450487
419.000000	64.428396
418.000000	63.454283
417.000000	62.579967
416.000000	61.742673
415.000000	60.849435
414.000000	60.155872
413.000000	59.605373
412.000000	59.145341
411.000000	58.859132
410.000000	58.613601
409.000000	58.452343
408.000000	58.425380
407.000000	58.493974
406.000000	58.604568
405.000000	58.782469
404.000000	59.011202
403.000000	59.236295
402.000000	59.501743
401.000000	59.834766
400.000000	60.253429
399.000000	60.583432
398.000000	60.879161
397.000000	61.279234
396.000000	61.645201
395.000000	62.001085
394.000000	62.381940
393.000000	62.699049
392.000000	63.047471
391.000000	63.347615
390.000000	63.706625
389.000000	64.028705
388.000000	64.226624
387.000000	64.447655
386.000000	64.859380
385.000000	65.175926
384.000000	65.387327
383.000000	65.779499
382.000000	66.181486
381.000000	66.474568
380.000000	66.892097
379.000000	67.200699
378.000000	67.136451
377.000000	67.532562
376.000000	68.128474
375.000000	69.329379
374.000000	70.336055
373.000000	71.261670
372.000000	71.851326
371.000000	72.855363
370.000000	73.736388
369.000000	75.032836
368.000000	76.501635
367.000000	77.997973
366.000000	78.495065
365.000000	79.464918
364.000000	80.996605
363.000000	82.328394
362.000000	83.069108
361.000000	83.802296
360.000000	84.877651
359.000000	85.704434
358.000000	86.135264
357.000000	86.734984
356.000000	87.036075
355.000000	87.870083
354.000000	88.565805
353.000000	89.590034
352.000000	90.458725
351.000000	90.784695
350.000000	91.944821
349.000000	92.416268
348.000000	93.752337
347.000000	94.388800
346.000000	94.636982
345.000000	95.627978
344.000000	95.540272
343.000000	95.393568
342.000000	96.083682
341.000000	95.764296
340.000000	96.138194
339.000000	96.194056
338.000000	96.518431
337.000000	95.545887
336.000000	95.717762
335.000000	94.682734
334.000000	94.854808
333.000000	94.334653
332.000000	94.343428
331.000000	93.965693
330.000000	95.616338
329.000000	94.563102
328.000000	94.070942
327.000000	93.655447
326.000000	93.505465
325.000000	93.660962
324.000000	93.568705
323.000000	93.874225
322.000000	93.984826
321.000000	93.700721
320.000000	93.530048
319.000000	93.898219
318.000000	93.875704
317.000000	94.160141
316.000000	94.178864
315.000000	94.259964
314.000000	94.135226
313.000000	94.347685
312.000000	94.430539
311.000000	94.668868
310.000000	94.808126
309.000000	94.644137
308.000000	95.357097
307.000000	96.063415
306.000000	96.964213
305.000000	97.583305
304.000000	98.268561
303.000000	99.132270
302.000000	99.332814
301.000000	99.719556
300.000000	100.189527
299.000000	100.702669
298.000000	101.189004
297.000000	102.116344
296.000000	102.415963
295.000000	103.422053
294.000000	103.931212
293.000000	104.914406
292.000000	105.669513
291.000000	106.702674
290.000000	107.699920
289.000000	109.003727
288.000000	109.842926
287.000000	110.936332
286.000000	111.963362
285.000000	112.901935
284.000000	114.033459
283.000000	114.798289
282.000000	115.307293
281.000000	116.271108
280.000000	116.924377
279.000000	117.294191
278.000000	117.811706
277.000000	118.028962
276.000000	118.528380
275.000000	118.416758
274.000000	118.971564
273.000000	119.183512
272.000000	119.525320
271.000000	119.718573
270.000000	119.747385
269.000000	119.941738
268.000000	120.508071
267.000000	120.889446
266.000000	121.422233
265.000000	122.691389
264.000000	123.539688
263.000000	124.664646
262.000000	125.719468
261.000000	127.021674
260.000000	128.147996
259.000000	129.666543
258.000000	130.809385
257.000000	132.333213
256.000000	134.037734
255.000000	136.095500
254.000000	137.534378
253.000000	139.268238
252.000000	141.185287
251.000000	143.466753
250.000000	145.915494
249.000000	148.237227
248.000000	149.807420
247.000000	151.569963
246.000000	153.060841
245.000000	154.941918
244.000000	157.270296
243.000000	159.388604
242.000000	161.523834
241.000000	165.387456
240.000000	168.254176
239.000000	170.674000
238.000000	174.298382
237.000000	177.637511
236.000000	181.946599
235.000000	186.549244
234.000000	191.426769
233.000000	196.273375
232.000000	200.141481
231.000000	203.896080
230.000000	207.431546
229.000000	211.814041
228.000000	215.732827
227.000000	219.538414
226.000000	224.335695
225.000000	227.898368
224.000000	232.109907
223.000000	235.410798
222.000000	238.712433
221.000000	242.443131
220.000000	246.036269
219.000000	248.587284
218.000000	251.462978
217.000000	255.307438
216.000000	258.443541
215.000000	261.368496
214.000000	265.008198
213.000000	269.661183
212.000000	273.954476
211.000000	279.274094
210.000000	285.406982
209.000000	292.923953
208.000000	301.139593
207.000000	309.490784
206.000000	318.382601
205.000000	328.658587
204.000000	341.437729
203.000000	354.756204
202.000000	368.650828
201.000000	383.937649
200.000000	400.732655
